Folder: Steel_model-app

File: NIMS_like_fatigue_dataset.csv
C (%),Si (%),Mn (%),P (%),S (%),Ni (%),Cr (%),Cu (%),Mo (%),Ingot Size (kg),Reduction Ratio (%),Inclusion Rating,Normalizing Temp (°C),Normalizing Time (h),Quenching Temp (°C),Quenching Time (s),Tempering Temp (°C),Tempering Time (h),Yield Strength (MPa),Ultimate Tensile Strength (MPa),% Elongation,% Reduction in Area,Hardness (HV),Charpy Impact Energy (J),Fatigue Strength (MPa)
0.481,1.188,0.574,0.0353,0.0336,0.329,1.09,0.315,0.141,4705.0,6.79,5,945.0,1.74,836.0,38.0,464.0,4.25,616,744,24.54,34.13,371,82.22,392
1.046,0.756,0.815,0.0198,0.0081,1.506,0.605,0.032,0.286,681.0,2.19,4,863.0,2.8,779.0,57.0,650.0,3.23,759,863,14.37,26.49,603,38.9,406
0.259,1.447,1.194,0.0307,0.0047,2.125,0.103,0.028,0.367,4395.0,6.4,1,877.0,1.56,828.0,45.0,500.0,4.19,549,666,22.37,45.86,244,89.82,238
0.21,1.458,1.077,0.0113,0.006,1.346,1.588,0.13,0.221,3544.0,6.62,3,845.0,3.28,768.0,32.0,512.0,3.02,517,605,24.89,50.76,322,96.61,319
0.731,1.457,1.34,0.0176,0.0284,2.219,0.569,0.407,0.793,3959.0,6.58,1,851.0,3.73,805.0,43.0,569.0,1.67,741,858,17.64,31.76,498,76.89,374
0.98,1.362,0.69,0.0164,0.0237,0.969,1.592,0.268,0.486,770.0,6.7,3,948.0,2.7,870.0,55.0,527.0,4.05,751,866,11.44,24.79,585,55.14,399
0.09,0.488,1.373,0.0109,0.0165,0.724,0.472,0.476,0.468,2653.0,3.71,1,803.0,3.97,891.0,54.0,264.0,4.95,525,602,28.31,47.99,229,118.15,339
0.263,1.481,1.275,0.0297,0.0233,1.186,1.308,0.196,1.0,625.0,8.39,4,918.0,1.35,858.0,10.0,205.0,4.76,562,679,25.3,47.27,324,74.14,326
0.152,1.375,1.134,0.0345,0.0269,0.305,0.993,0.429,0.34,4844.0,7.3,2,858.0,2.01,807.0,23.0,322.0,2.79,538,610,30.39,51.41,241,101.72,329
0.46,1.312,0.901,0.007,0.02,2.458,0.951,0.347,0.035,904.0,2.39,2,876.0,3.56,868.0,54.0,459.0,2.75,595,729,21.71,41.94,364,90.74,324
0.938,0.932,1.395,0.0161,0.029,3.177,0.245,0.257,0.237,1820.0,6.0,3,842.0,3.02,859.0,49.0,261.0,2.94,772,856,14.93,36.0,544,87.73,424
0.135,0.483,0.293,0.0383,0.0188,0.005,0.415,0.177,0.38,4757.0,3.68,5,866.0,3.38,869.0,36.0,362.0,4.62,565,660,29.38,52.09,234,86.04,306
0.408,1.177,1.511,0.0099,0.0073,0.401,1.722,0.196,0.677,3171.0,7.53,4,942.0,3.68,878.0,6.0,569.0,3.54,657,798,22.32,40.24,403,88.93,434
0.87,0.949,1.45,0.0083,0.0152,0.249,1.964,0.214,0.525,1106.0,3.65,1,814.0,3.88,836.0,42.0,587.0,3.76,704,755,15.39,28.07,547,42.95,369
0.079,0.828,1.91,0.0381,0.0137,2.078,1.964,0.435,0.933,3780.0,5.24,5,904.0,1.07,772.0,21.0,509.0,1.76,627,737,27.54,51.08,280,116.5,408
0.337,0.665,1.386,0.0376,0.0087,0.422,1.957,0.071,0.885,558.0,9.18,5,825.0,1.7,847.0,56.0,459.0,1.35,623,676,26.22,38.41,356,83.19,330
1.119,0.291,1.899,0.0087,0.0349,1.033,1.367,0.21,0.706,2970.0,5.89,3,904.0,1.49,896.0,50.0,550.0,2.29,887,997,18.07,30.64,691,43.2,441
0.67,0.588,0.261,0.0324,0.0156,2.552,0.778,0.344,0.261,935.0,8.87,1,858.0,3.45,809.0,47.0,442.0,4.37,664,758,20.94,43.09,444,90.13,294
0.991,0.306,1.752,0.0333,0.0214,1.072,1.485,0.422,0.062,3122.0,4.65,3,851.0,0.75,811.0,10.0,585.0,2.48,879,987,19.1,28.97,589,42.59,498
0.438,0.56,0.417,0.0052,0.0219,1.508,0.649,0.441,0.502,1919.0,8.89,5,897.0,3.29,789.0,14.0,314.0,3.5,596,689,23.6,44.38,361,106.85,359
1.157,0.294,1.171,0.0133,0.0039,1.311,0.846,0.033,0.904,3891.0,9.57,3,885.0,1.01,815.0,11.0,443.0,2.0,923,990,10.4,20.21,671,41.88,547
0.628,0.341,0.244,0.0212,0.0069,0.089,0.577,0.037,0.411,1780.0,4.02,2,859.0,1.62,861.0,60.0,666.0,1.94,607,663,20.19,37.41,405,64.6,366
1.183,0.269,1.996,0.0183,0.0349,2.37,0.293,0.11,0.272,986.0,5.07,3,934.0,3.17,822.0,30.0,292.0,3.89,880,1010,11.17,23.13,628,54.23,547
0.777,1.219,1.971,0.0301,0.0155,0.492,0.637,0.328,0.735,3135.0,6.83,4,910.0,0.53,854.0,14.0,334.0,4.0,714,786,16.96,38.5,502,33.36,436
0.097,1.229,0.838,0.0135,0.013,0.108,0.637,0.402,0.164,3602.0,7.37,4,848.0,2.56,764.0,23.0,656.0,2.04,519,629,30.93,47.08,202,104.77,331
0.251,0.616,0.97,0.014,0.033,3.15,1.005,0.376,0.932,3786.0,9.09,0,948.0,3.53,893.0,46.0,630.0,3.87,533,615,25.4,40.92,308,98.8,316
1.113,0.816,0.952,0.0301,0.0171,3.444,0.493,0.085,0.011,2114.0,9.54,3,810.0,3.98,831.0,22.0,472.0,2.67,714,836,14.81,22.66,610,54.96,431
0.328,0.628,0.617,0.0234,0.0261,0.54,1.688,0.327,0.981,1991.0,9.81,0,869.0,3.02,795.0,50.0,610.0,0.83,515,617,25.42,50.06,357,92.79,344
0.885,0.931,0.597,0.0332,0.0336,0.908,1.124,0.135,0.532,1629.0,6.04,5,893.0,1.67,897.0,22.0,631.0,3.6,732,820,17.69,32.35,582,38.11,415
1.083,1.144,1.87,0.0359,0.0102,1.215,0.891,0.254,0.984,2777.0,6.76,3,906.0,0.85,889.0,29.0,360.0,0.72,879,946,17.18,28.99,667,56.16,492
0.681,0.599,1.668,0.0174,0.0031,3.478,0.538,0.398,0.692,1018.0,5.35,5,836.0,3.74,825.0,8.0,295.0,2.15,614,671,17.61,39.79,481,90.92,331
0.908,0.325,1.779,0.0083,0.0317,0.138,1.712,0.135,0.824,777.0,9.97,2,927.0,1.5,831.0,52.0,442.0,2.42,817,918,18.11,40.01,582,37.1,450
0.355,0.675,1.379,0.0126,0.0158,1.867,0.805,0.407,0.209,3208.0,3.76,4,861.0,3.01,766.0,50.0,638.0,1.13,627,696,26.73,42.76,353,103.58,376
0.628,0.461,1.093,0.0187,0.0207,3.07,1.356,0.216,0.808,3805.0,2.54,2,867.0,1.37,764.0,33.0,270.0,0.5,708,778,18.43,46.13,465,82.54,390
0.792,1.177,1.065,0.02,0.0094,2.061,1.909,0.019,0.934,2055.0,5.0,5,937.0,1.48,839.0,58.0,621.0,0.85,795,925,16.67,39.69,500,75.06,453
1.118,0.955,1.782,0.0252,0.0259,1.723,0.295,0.498,0.656,1833.0,2.43,0,887.0,1.68,830.0,28.0,279.0,1.27,973,1078,11.64,28.73,645,55.71,582
1.029,0.571,1.455,0.0129,0.0075,2.007,1.457,0.499,0.613,3898.0,7.4,4,874.0,2.66,882.0,48.0,644.0,2.41,827,910,14.74,33.18,631,46.92,436
0.162,1.054,0.253,0.0239,0.02,3.126,1.633,0.02,0.834,4026.0,9.91,5,820.0,1.9,767.0,9.0,683.0,3.26,493,592,24.52,47.37,276,127.28,327
0.852,1.263,1.698,0.0398,0.0086,0.067,1.481,0.156,0.413,3749.0,8.86,1,915.0,0.81,888.0,15.0,527.0,2.2,837,958,19.64,23.09,519,40.78,500
1.1,1.138,0.668,0.0385,0.031,1.256,1.495,0.019,0.827,2666.0,8.55,5,879.0,1.51,821.0,52.0,234.0,2.0,884,1010,14.53,23.07,666,29.72,459
1.074,0.33,1.933,0.0315,0.0029,2.369,0.932,0.29,0.502,1762.0,2.55,2,820.0,0.56,892.0,16.0,631.0,0.64,801,927,16.79,23.44,621,56.92,435
0.674,1.243,0.322,0.0103,0.0237,0.5,1.059,0.298,0.635,4561.0,9.24,3,879.0,2.83,778.0,13.0,527.0,0.61,668,783,19.32,47.49,434,60.58,424
0.196,0.425,0.282,0.0081,0.0115,0.31,0.35,0.491,0.731,3146.0,4.38,4,811.0,2.9,835.0,54.0,334.0,0.5,532,681,25.49,45.49,287,73.96,359
0.661,1.416,0.244,0.0156,0.0196,0.388,1.614,0.337,0.379,3194.0,2.56,4,941.0,3.55,820.0,7.0,448.0,4.94,677,766,20.38,38.63,499,53.64,366
0.964,1.351,0.693,0.0189,0.0111,0.269,1.381,0.349,0.573,3072.0,3.98,0,896.0,1.39,809.0,32.0,638.0,0.59,828,882,15.97,33.67,593,46.5,441
0.85,0.898,0.597,0.0348,0.007,1.034,0.735,0.353,0.395,3499.0,9.48,3,905.0,0.96,835.0,26.0,447.0,1.64,717,791,15.49,29.04,521,41.6,422
0.809,0.278,0.978,0.0354,0.0339,1.125,1.402,0.305,0.783,730.0,5.02,1,897.0,0.85,896.0,36.0,502.0,3.77,733,787,19.5,31.37,529,70.47,364
0.335,0.998,0.937,0.0293,0.0161,2.267,1.301,0.201,0.12,2776.0,6.03,0,806.0,2.68,843.0,23.0,415.0,1.4,666,737,20.49,39.86,333,90.69,377
1.034,0.917,1.756,0.0373,0.0046,0.251,0.921,0.177,0.417,4819.0,5.02,4,870.0,3.56,814.0,47.0,688.0,3.61,858,969,12.7,19.85,612,36.83,452
0.549,0.956,1.721,0.0101,0.0124,1.821,0.867,0.441,0.393,705.0,2.34,0,854.0,2.95,895.0,36.0,339.0,4.19,599,740,20.78,39.82,401,82.24,424
0.629,1.09,1.634,0.0388,0.0131,2.203,0.49,0.143,0.024,1055.0,9.85,5,847.0,3.83,771.0,31.0,545.0,3.64,741,824,20.4,34.8,409,93.67,392
0.724,1.396,1.085,0.0126,0.0135,0.967,0.246,0.233,0.42,1142.0,9.5,4,867.0,3.46,880.0,44.0,288.0,1.11,781,912,19.21,36.34,483,51.56,483
1.133,1.318,0.221,0.007,0.0176,1.107,1.332,0.426,0.011,2349.0,4.51,5,926.0,3.28,793.0,12.0,472.0,4.88,866,999,12.55,28.84,622,43.48,512
0.071,0.106,1.748,0.0092,0.0043,3.122,1.259,0.235,0.544,4805.0,3.06,1,923.0,1.09,871.0,8.0,395.0,4.73,539,596,26.82,39.85,212,143.14,300
0.987,1.133,0.456,0.0335,0.0249,1.728,0.394,0.484,0.051,1306.0,4.9,5,814.0,1.75,878.0,7.0,533.0,0.7,733,845,14.26,34.81,540,56.64,414
0.974,0.686,1.132,0.036,0.033,2.332,1.392,0.065,0.93,1763.0,9.07,3,888.0,3.16,854.0,29.0,305.0,1.45,792,929,16.11,38.18,581,65.57,495
0.478,0.349,1.222,0.0319,0.0241,2.736,0.858,0.073,0.752,1511.0,6.88,0,852.0,2.47,798.0,10.0,522.0,2.49,677,784,25.41,47.01,373,90.89,424
0.918,0.934,1.472,0.0098,0.0146,1.602,0.924,0.282,0.161,3789.0,9.29,0,911.0,1.73,807.0,7.0,468.0,3.1,775,884,11.9,28.37,561,68.88,439
0.498,0.151,1.485,0.0386,0.0112,2.878,1.475,0.137,0.361,3614.0,9.73,4,929.0,0.79,767.0,5.0,402.0,4.08,652,768,22.58,37.47,407,87.32,369
0.709,0.717,1.671,0.0221,0.0338,2.372,0.274,0.209,0.193,1108.0,3.56,1,893.0,1.44,782.0,33.0,387.0,0.51,772,868,12.93,32.33,471,73.54,427
0.96,0.623,0.645,0.0211,0.0252,2.257,0.615,0.157,0.411,4582.0,9.62,2,843.0,0.9,761.0,50.0,219.0,3.7,668,811,15.23,26.08,553,52.04,403
1.071,1.022,1.621,0.0203,0.0217,0.203,0.254,0.245,0.156,2110.0,3.82,5,907.0,1.03,812.0,26.0,636.0,3.98,823,906,11.5,24.35,562,44.53,426
0.147,1.22,1.955,0.0281,0.024,1.181,0.481,0.203,0.156,1445.0,5.91,1,914.0,0.86,817.0,51.0,539.0,1.05,515,616,28.27,43.07,230,119.76,319
1.185,1.298,1.033,0.0308,0.0031,2.083,1.849,0.088,0.289,3627.0,5.47,3,903.0,0.88,814.0,41.0,368.0,4.56,908,1015,12.67,32.95,683,41.19,513
0.483,0.118,1.978,0.0075,0.0218,2.709,1.596,0.186,0.851,1676.0,8.44,3,844.0,3.81,841.0,32.0,534.0,1.75,706,811,26.81,44.68,416,90.73,462
0.146,0.22,0.272,0.0054,0.0058,2.705,0.963,0.331,0.202,2386.0,8.76,5,844.0,2.53,835.0,53.0,471.0,4.78,470,552,26.02,56.72,240,98.79,244